"B2.spc - RawData"
"Wavelength nm."	"Abs."
220.00	0.019
222.00	0.014
224.00	0.009
226.00	0.006
228.00	0.004
230.00	0.002
232.00	0.001
234.00	-0.000
236.00	-0.001
238.00	-0.001
240.00	-0.001
242.00	-0.002
244.00	-0.002
246.00	-0.002
248.00	-0.003
250.00	-0.003
252.00	-0.003
254.00	-0.003
256.00	-0.002
258.00	-0.002
260.00	-0.002
262.00	-0.002
264.00	-0.002
266.00	-0.002
268.00	-0.002
270.00	-0.002
272.00	-0.002
274.00	-0.002
276.00	-0.002
278.00	-0.002
280.00	-0.002
282.00	-0.002
284.00	-0.002
286.00	-0.002
288.00	-0.002
290.00	-0.002
292.00	-0.003
294.00	-0.002
296.00	-0.002
298.00	-0.002
300.00	-0.003
302.00	-0.003
304.00	-0.001
306.00	-0.003
308.00	-0.003
310.00	-0.004
312.00	-0.003
314.00	-0.004
316.00	-0.003
318.00	-0.003
320.00	-0.004
322.00	-0.004
324.00	-0.003
326.00	-0.002
328.00	-0.003
330.00	-0.004
332.00	-0.003
334.00	-0.003
336.00	-0.002
338.00	-0.003
340.00	-0.003
342.00	-0.003
344.00	-0.003
346.00	-0.003
348.00	-0.002
350.00	-0.002
352.00	-0.003
354.00	-0.003
356.00	-0.003
358.00	-0.003
360.00	-0.003
362.00	-0.003
364.00	-0.004
366.00	-0.002
368.00	-0.002
370.00	-0.002
372.00	-0.003
374.00	-0.002
376.00	-0.002
378.00	-0.002
380.00	-0.002
382.00	-0.002
384.00	-0.002
386.00	-0.002
388.00	-0.002
390.00	-0.002
392.00	-0.002
394.00	-0.002
396.00	-0.002
398.00	-0.002
400.00	-0.002
